Freq,Impedance
1,10.57
2,625.04
3,1234.35
4,2804.87
5,4621.13
6,3999.27
7,3377.51
8,4629.1
9,5000.29
10,4251.05
11,3899.06
12,4316.92
13,4002.36
14,3705.33
15,3425.71
16,3276.67
17,3181.75
18,2973.65
19,2841.86
20,2697.25
21,2771.34
22,2640.59
23,2488.89
24,2446.05
25,2431.32
26,2315.95
27,2188.23
28,2073.06
29,2062.1
30,2019.91
31,1959.39
32,1857.91
33,1866.66
34,1823.35
35,1798.47
36,1660.75
37,1719.86
38,1641.18
39,1544.34
40,1480.72
41,1453.4
42,1453.4
43,1406.5
44,1291.42
45,1283.0
46,1226.99
47,1254.38
48,1175.77
49,1144.96
50,1097.13
51,1067.42
52,1031.1
53,994.64
54,967.72
55,946.44
56,909.57
57,898.67
58,872.32
59,849.84
60,829.53
61,820.36
62,793.14
63,770.51
64,757.41
65,744.57
66,733.39
67,722.54
68,709.58
69,697.64
70,683.17
71,670.74
72,667.21
73,652.29
74,637.95
75,635.42
76,616.93
77,608.21
78,594.63
79,587.72
80,573.26
81,562.91
82,550.94
83,542.63
84,533.42
85,523.35
86,516.79
87,503.08
88,498.86
89,492.59
90,480.98
91,481.33
92,468.41
93,461.82
94,454.43
95,452.23
96,442.35
97,432.55
98,429.37
99,422.76
100,419.19
