Freq,Impedance
1,10.57
2,623.09
3,1234.35
4,2868.87
5,5670.45
6,4621.13
7,4151.88
8,5842.51
9,6696.19
10,5410.39
11,4733.21
12,5451.69
13,5049.35
14,4563.39
15,4349.7
16,4527.08
17,4189.29
18,3887.65
19,3661.84
20,3603.9
21,3514.56
22,3279.5
23,3125.16
24,2958.51
25,3002.45
26,2833.02
27,2917.64
28,2567.76
29,2624.42
30,2590.43
31,2522.35
32,2366.61
33,2328.06
34,2358.53
35,2249.84
36,2060.83
37,2151.2
38,1977.71
39,2009.5
40,1911.85
41,1866.55
42,1875.63
43,1782.11
44,1640.82
45,1640.82
46,1562.58
47,1532.2
48,1440.9
49,1425.53
50,1347.95
51,1325.93
52,1294.66
53,1258.31
54,1211.37
55,1182.4
56,1154.76
57,1125.38
58,1109.09
59,1053.15
60,1036.44
61,1025.7
62,991.53
63,965.29
64,944.03
65,922.75
66,926.17
67,904.95
68,877.83
69,860.49
70,850.21
71,843.43
72,825.72
73,803.44
74,789.15
75,769.86
76,757.89
77,744.41
78,728.15
79,712.04
80,699.07
81,686.65
82,677.21
83,667.0
84,649.63
85,640.04
86,624.25
87,610.5
88,609.08
89,593.02
90,588.64
91,581.53
92,565.33
93,551.37
94,550.88
95,546.59
96,529.74
97,520.01
98,516.83
99,506.75
100,502.14
