Freq,Impedance
1,10.57
2,626.17
3,1259.08
4,2974.07
5,5438.68
6,4826.46
7,4079.98
8,6255.25
9,6774.98
10,5868.39
11,5014.45
12,6151.4
13,5801.17
14,5145.38
15,4803.08
16,5008.37
17,4491.62
18,4123.35
19,4196.41
20,3861.4
21,3887.65
22,3688.23
23,3524.4
24,3181.75
25,3161.7
26,3040.22
27,2992.04
28,2813.44
29,2806.29
30,2748.98
31,2732.07
32,2506.97
33,2569.95
34,2516.16
35,2377.36
36,2236.2
37,2290.75
38,2125.52
39,2061.67
40,1951.8
41,1988.14
42,1946.91
43,1735.23
44,1682.81
45,1768.14
46,1628.5
47,1624.0
48,1534.52
49,1509.53
50,1442.78
51,1361.9
52,1301.42
53,1256.26
54,1240.46
55,1224.18
56,1179.48
57,1159.48
58,1119.79
59,1063.44
60,1044.67
61,1024.06
62,993.63
63,973.51
64,957.43
65,931.12
66,920.24
67,907.54
68,881.13
69,865.2
70,846.28
71,829.53
72,815.71
73,807.45
74,784.59
75,762.99
76,752.47
77,735.94
78,721.7
79,713.4
80,692.85
81,683.76
82,663.21
83,653.34
84,641.22
85,632.53
86,624.48
87,605.26
88,599.01
89,589.2
90,577.3
91,572.42
92,558.41
93,547.44
94,541.53
95,535.58
96,520.86
97,518.62
98,506.48
99,503.22
100,495.73
