Freq,Impedance
1,10.57
2,624.25
3,1241.57
4,2887.69
5,4733.21
6,4381.88
7,3631.37
8,5180.86
9,5635.52
10,5024.64
11,4295.05
12,5149.77
13,5205.69
14,4318.22
15,4119.96
16,4006.5
17,3737.72
18,3591.89
19,3376.27
20,3254.22
21,3248.13
22,3181.75
23,3027.18
24,2823.18
25,2806.29
26,2709.99
27,2741.31
28,2461.76
29,2399.53
30,2328.67
31,2307.99
32,2128.31
33,2187.39
34,2146.09
35,2048.11
36,1849.19
37,1920.8
38,1863.21
39,1805.26
40,1695.86
41,1708.9
42,1708.9
43,1618.23
44,1477.38
45,1466.03
46,1417.89
47,1397.04
48,1349.34
49,1308.4
50,1254.73
51,1239.81
52,1202.06
53,1144.26
54,1114.2
55,1089.73
56,1065.54
57,1038.22
58,991.77
59,962.21
60,946.66
61,931.12
62,895.19
63,877.23
64,860.0
65,858.0
66,823.23
67,806.39
68,793.34
69,781.58
70,766.4
71,749.16
72,735.63
73,733.29
74,715.92
75,701.78
76,688.03
77,681.94
78,672.25
79,661.22
80,649.96
81,635.77
82,623.84
83,619.99
84,602.35
85,592.92
86,581.13
87,567.9
88,561.82
89,554.51
90,542.57
91,539.2
92,527.78
93,514.54
94,509.25
95,509.05
96,493.51
97,481.73
98,476.67
99,471.3
100,468.39
