Freq,Impedance
1,10.57
2,616.1
3,1203.43
4,2576.81
5,3744.47
6,3451.26
7,3090.34
8,3717.69
9,3741.94
10,3286.35
11,2935.01
12,3089.86
13,2954.76
14,2785.17
15,2543.29
16,2569.95
17,2412.78
18,2347.82
19,2231.89
20,2095.09
21,1998.99
22,1911.96
23,1857.91
24,1772.79
25,1704.33
26,1647.12
27,1620.42
28,1471.49
29,1494.89
30,1460.98
31,1422.6
32,1340.87
33,1333.7
34,1335.65
35,1328.34
36,1218.31
37,1226.07
38,1209.43
39,1182.61
40,1154.66
41,1138.08
42,1118.1
43,1077.67
44,1006.42
45,1000.17
46,973.99
47,950.77
48,924.47
49,907.3
50,879.59
51,860.59
52,835.67
53,821.29
54,797.81
55,771.69
56,748.06
57,739.15
58,718.15
59,703.8
60,691.84
61,671.29
62,667.68
63,648.92
64,647.84
65,637.2
66,622.22
67,613.06
68,604.4
69,590.84
70,582.7
71,573.6
72,559.63
73,554.75
74,545.09
75,536.88
76,530.01
77,519.88
78,511.28
79,501.75
80,491.57
81,480.74
82,473.89
83,468.91
84,459.2
85,451.7
86,446.81
87,436.61
88,433.44
89,424.64
90,420.91
91,416.94
92,407.89
93,403.24
94,396.92
95,395.85
96,387.15
97,382.11
98,379.81
99,376.0
100,369.89
