Freq,Impedance
1,10.56
2,620.41
3,1207.95
4,2804.87
5,4493.08
6,4151.88
7,3680.98
8,5679.28
9,6519.58
10,5858.64
11,5178.62
12,6151.4
13,6402.26
14,5578.71
15,5102.03
16,4482.88
17,4929.31
18,4679.46
19,4563.39
20,4189.29
21,4060.42
22,3887.65
23,3747.01
24,3454.57
25,3485.55
26,3454.57
27,3248.13
28,3052.52
29,2983.87
30,3005.94
31,2939.09
32,2678.48
33,2697.57
34,2679.41
35,2660.39
36,2415.73
37,2401.54
38,2399.53
39,2357.05
40,2174.02
41,2125.99
42,2136.12
43,2122.13
44,1863.21
45,1904.79
46,1786.23
47,1779.2
48,1649.72
49,1635.51
50,1615.98
51,1505.55
52,1491.45
53,1366.81
54,1345.44
55,1301.1
56,1288.65
57,1244.44
58,1241.78
59,1177.76
60,1133.9
61,1121.4
62,1091.05
63,1047.32
64,1050.26
65,1036.17
66,1038.66
67,1015.04
68,971.88
69,949.94
70,926.95
71,908.95
72,886.75
73,874.6
74,867.62
75,844.56
76,834.37
77,807.72
78,799.16
79,784.24
80,769.18
81,754.44
82,732.41
83,720.23
84,708.79
85,695.5
86,686.39
87,663.26
88,660.25
89,643.34
90,630.57
91,633.87
92,612.02
93,604.46
94,594.26
95,591.12
96,574.51
97,566.22
98,560.38
99,558.33
100,554.24
