Freq,Impedance
1,10.56
2,605.81
3,1155.43
4,2438.07
5,3668.98
6,3321.21
7,2935.42
8,3568.23
9,3945.73
10,3184.35
11,3043.85
12,3058.96
13,2915.65
14,2663.74
15,2542.23
16,2516.16
17,2261.86
18,2170.55
19,2125.99
20,2049.22
21,1937.46
22,1875.63
23,1798.38
24,1740.39
25,1672.69
26,1653.2
27,1613.4
28,1490.39
29,1490.39
30,1494.24
31,1449.9
32,1389.42
33,1377.43
34,1362.88
35,1309.38
36,1223.58
37,1259.59
38,1194.95
39,1216.13
40,1162.89
41,1131.65
42,1123.96
43,1085.4
44,1040.72
45,1034.22
46,1004.75
47,999.53
48,959.03
49,957.76
50,930.77
51,896.62
52,891.33
53,848.4
54,850.8
55,823.87
56,814.65
57,800.68
58,777.84
59,761.23
60,746.34
61,731.91
62,728.15
63,709.37
64,699.69
65,697.6
66,682.64
67,667.77
68,660.96
69,649.63
70,636.37
71,626.91
72,624.11
73,611.92
74,601.61
75,594.5
76,588.88
77,575.24
78,567.28
79,554.51
80,547.02
81,537.38
82,524.51
83,521.15
84,511.02
85,502.1
86,490.8
87,483.46
88,476.49
89,470.22
90,462.58
91,461.81
92,449.51
93,440.87
94,436.14
95,435.01
96,426.53
97,420.01
98,416.48
99,411.5
100,405.49
