Freq,Impedance
1,10.57
2,623.97
3,1257.57
4,2974.07
5,6368.69
6,5187.6
7,4714.53
8,7023.54
9,8807.47
10,6506.23
11,5670.45
12,6851.42
13,6710.76
14,5791.76
15,5074.43
16,5570.33
17,5355.1
18,4801.3
19,4578.79
20,4326.02
21,4231.38
22,4065.83
23,4088.77
24,3675.37
25,3634.46
26,3511.77
27,3394.4
28,3125.65
29,3125.16
30,2960.18
31,2935.42
32,2813.44
33,2625.88
34,2735.03
35,2806.29
36,2414.82
37,2524.68
38,2316.95
39,2328.67
40,2151.85
41,2184.86
42,2235.66
43,2163.01
44,1949.05
45,1975.72
46,1820.23
47,1830.03
48,1730.87
49,1678.83
50,1598.92
51,1561.54
52,1495.53
53,1410.46
54,1390.11
55,1350.96
56,1280.01
57,1286.76
58,1262.44
59,1199.77
60,1179.03
61,1148.34
62,1128.58
63,1087.92
64,1073.18
65,1058.76
66,1044.06
67,1022.29
68,1010.78
69,994.31
70,969.89
71,940.46
72,928.34
73,913.82
74,908.6
75,901.92
76,863.38
77,858.41
78,842.78
79,836.1
80,814.37
81,792.49
82,793.36
83,778.53
84,753.77
85,747.33
86,730.28
87,711.57
88,705.63
89,688.16
90,682.38
91,674.68
92,656.47
93,648.02
94,640.61
95,637.52
96,618.6
97,608.99
98,609.33
99,591.05
100,585.18
