Freq,Impedance
1,10.57
2,623.97
3,1241.57
4,2943.6
5,5299.07
6,4464.13
7,3694.72
8,5868.39
9,6484.15
10,5014.45
11,4510.72
12,4970.34
13,4178.66
14,3945.73
15,3649.25
16,3814.94
17,3949.7
18,3499.96
19,3440.71
20,3254.22
21,3328.32
22,3219.79
23,3027.18
24,2812.73
25,2812.73
26,2741.31
27,2765.53
28,2461.76
29,2443.46
30,2300.89
31,2288.62
32,2176.01
33,2125.99
34,2146.09
35,1998.47
36,1920.8
37,1968.79
38,1852.67
39,1803.08
40,1730.87
41,1715.29
42,1693.74
43,1612.32
44,1539.91
45,1459.37
46,1417.89
47,1382.77
48,1330.42
49,1321.15
50,1278.43
51,1238.37
52,1190.17
53,1175.45
54,1117.0
55,1086.25
56,1068.91
57,1032.66
58,1028.13
59,964.35
60,933.05
61,917.78
62,891.13
63,873.33
64,852.56
65,828.81
66,827.22
67,808.46
68,793.34
69,776.87
70,767.61
71,752.47
72,744.81
73,726.57
74,718.46
75,701.78
76,684.31
77,677.65
78,668.68
79,654.79
80,644.29
81,633.15
82,619.69
83,615.67
84,601.81
85,592.71
86,586.25
87,565.18
88,559.29
89,548.28
90,537.94
91,540.37
92,522.25
93,513.55
94,511.73
95,507.65
96,497.33
97,478.64
98,460.13
99,445.91
100,434.37
