Freq,Impedance
1,10.57
2,614.21
3,1196.41
4,2546.21
5,4078.89
6,3443.33
7,2929.32
8,3802.47
9,3782.26
10,3295.54
11,3075.7
12,3171.42
13,2983.87
14,2725.84
15,2672.0
16,2557.46
17,2476.8
18,2415.73
19,2324.81
20,2208.61
21,2135.34
22,2105.84
23,1997.32
24,1926.89
25,1846.75
26,1779.65
27,1781.38
28,1624.2
29,1607.15
30,1591.59
31,1539.91
32,1469.29
33,1453.35
34,1443.41
35,1380.68
36,1371.11
37,1309.38
38,1336.85
39,1293.19
40,1220.99
41,1220.99
42,1209.43
43,1193.69
44,1113.8
45,1100.48
46,1047.77
47,1034.08
48,996.83
49,981.63
50,949.04
51,935.37
52,899.55
53,889.13
54,854.72
55,830.21
56,800.79
57,796.86
58,791.88
59,751.62
60,734.23
61,723.96
62,707.75
63,703.8
64,693.81
65,681.62
66,668.24
67,656.76
68,647.6
69,638.6
70,626.25
71,619.38
72,606.33
73,598.6
74,596.14
75,583.85
76,565.46
77,559.4
78,550.94
79,541.5
80,533.43
81,525.51
82,517.82
83,509.19
84,495.76
85,491.67
86,493.28
87,472.49
88,465.07
89,455.1
90,443.5
91,441.79
92,432.47
93,421.73
94,420.18
95,417.18
96,405.82
97,400.96
98,396.39
99,392.86
100,389.8
