Freq,Impedance
1,10.57
2,620.66
3,1212.75
4,2661.3
5,4189.29
6,3744.47
7,3202.19
8,4235.05
9,4595.9
10,3922.19
11,3412.18
12,3809.58
13,3606.17
14,3295.54
15,3157.63
16,3027.18
17,3001.14
18,2725.84
19,2590.15
20,2557.46
21,2506.97
22,2425.78
23,2315.95
24,2198.78
25,2149.76
26,2072.35
27,1959.39
28,1831.51
29,1893.64
30,1823.45
31,1750.15
32,1682.27
33,1634.31
34,1563.01
35,1550.61
36,1457.82
37,1462.54
38,1382.04
39,1391.5
40,1321.48
41,1286.86
42,1278.6
43,1241.32
44,1175.64
45,1157.98
46,1121.95
47,1100.07
48,1055.85
49,1047.03
50,994.2
51,960.4
52,930.5
53,930.02
54,887.6
55,849.38
56,820.36
57,814.52
58,806.21
59,768.22
60,759.12
61,742.53
62,724.06
63,697.03
64,694.06
65,683.62
66,671.93
67,663.43
68,651.74
69,641.46
70,630.45
71,620.23
72,606.39
73,601.22
74,588.65
75,579.51
76,564.48
77,562.48
78,551.51
79,543.4
80,533.16
81,525.54
82,516.81
83,509.43
84,501.21
85,492.18
86,482.48
87,473.96
88,468.34
89,462.68
90,454.02
91,449.3
92,437.84
93,432.98
94,426.87
95,425.48
96,416.23
97,413.22
98,406.68
99,398.67
100,394.47
