Freq,Impedance
1,10.57
2,622.84
3,1241.57
4,2804.87
5,4629.1
6,3999.27
7,3740.25
8,5024.64
9,5462.16
10,4424.52
11,3986.95
12,4602.17
13,4452.7
14,3883.86
15,3649.25
16,3539.31
17,3248.13
18,3293.23
19,2916.04
20,2833.39
21,2792.86
22,2709.99
23,2620.06
24,2446.28
25,2477.05
26,2316.95
27,2372.4
28,2151.2
29,2105.84
30,2039.85
31,2008.32
32,1865.71
33,1853.9
34,1949.53
35,1865.71
36,1702.82
37,1702.82
38,1626.49
39,1581.04
40,1538.03
41,1499.43
42,1447.3
43,1427.07
44,1321.74
45,1333.47
46,1273.57
47,1280.55
48,1200.19
49,1185.96
50,1154.36
51,1106.2
52,1087.74
53,1036.44
54,1016.56
55,991.53
56,957.53
57,924.47
58,912.99
59,877.72
60,863.12
61,847.4
62,832.96
63,809.83
64,792.78
65,781.15
66,769.79
67,759.51
68,744.25
69,733.96
70,721.9
71,711.61
72,701.43
73,679.38
74,675.72
75,663.94
76,648.82
77,642.57
78,634.67
79,625.52
80,610.45
81,603.16
82,594.4
83,584.67
84,568.46
85,560.79
86,545.78
87,536.68
88,531.05
89,519.68
90,511.97
91,508.97
92,495.04
93,490.94
94,484.98
95,475.75
96,469.41
97,466.52
98,453.0
99,445.38
100,436.28
