Freq,Impedance
1,10.56
2,617.46
3,1223.14
4,2797.43
5,5315.94
6,4595.9
7,4216.8
8,6070.51
9,6769.97
10,6519.58
11,5337.86
12,6710.76
13,6629.47
14,5948.14
15,5542.69
16,5016.49
17,5205.69
18,4595.9
19,4558.81
20,4471.31
21,4189.29
22,4088.77
23,3887.65
24,3646.9
25,3577.05
26,3606.17
27,3304.22
28,3052.52
29,3027.62
30,2960.18
31,2891.19
32,2697.25
33,2714.81
34,2741.31
35,2443.46
36,2456.97
37,2425.78
38,2252.96
39,2195.53
40,2112.49
41,2066.63
42,2075.65
43,1900.13
44,1786.23
45,1808.4
46,1675.87
47,1664.16
48,1567.71
49,1537.27
50,1486.82
51,1398.72
52,1380.68
53,1356.4
54,1292.28
55,1263.05
56,1208.37
57,1163.49
58,1130.93
59,1098.68
60,1087.01
61,1047.32
62,1050.26
63,1025.56
64,997.09
65,994.62
66,974.76
67,948.84
68,930.02
69,903.98
70,886.96
71,871.86
72,868.65
73,866.34
74,837.85
75,826.96
76,807.0
77,800.47
78,786.99
79,772.47
80,751.37
81,731.4
82,719.79
83,712.83
84,689.9
85,680.36
86,664.71
87,648.02
88,636.77
89,616.5
90,610.54
91,618.14
92,598.77
93,587.21
94,574.64
95,571.87
96,555.96
97,550.88
98,542.48
99,541.74
100,521.92
