Freq,Impedance
1,10.56
2,615.59
3,1201.08
4,2678.48
5,4276.02
6,4276.02
7,3547.91
8,5501.98
9,5679.28
10,5462.16
11,4633.91
12,5456.92
13,5240.13
14,4677.81
15,4347.05
16,4452.7
17,4088.77
18,3895.24
19,3685.0
20,3454.57
21,3282.35
22,3304.22
23,3119.77
24,2983.87
25,2895.49
26,2773.75
27,2620.06
28,2504.69
29,2492.87
30,2574.34
31,2524.68
32,2398.87
33,2344.49
34,2398.87
35,2208.61
36,2211.56
37,2163.66
38,1930.59
39,1968.79
40,1866.66
41,1857.91
42,1866.66
43,1727.29
44,1647.98
45,1607.35
46,1538.5
47,1526.66
48,1464.2
49,1448.09
50,1391.67
51,1367.51
52,1316.97
53,1282.45
54,1211.8
55,1189.95
56,1155.06
57,1109.09
58,1084.02
59,1078.72
60,1044.06
61,1018.77
62,1002.92
63,992.35
64,980.03
65,986.66
66,940.46
67,940.46
68,905.95
69,889.5
70,874.73
71,855.61
72,848.4
73,824.67
74,796.31
75,766.24
76,748.43
77,740.46
78,721.78
79,702.1
80,690.69
81,682.07
82,674.68
83,658.88
84,643.6
85,630.66
86,622.66
87,605.97
88,605.81
89,605.71
90,591.99
91,584.17
92,565.66
93,559.45
94,545.67
95,545.91
96,529.23
97,524.23
98,516.46
99,508.31
100,504.38
