Freq,Impedance
1,10.56
2,613.46
3,1199.82
4,2672.0
5,4733.21
6,4078.89
7,3706.97
8,5178.62
9,6227.82
10,5299.07
11,4515.17
12,5108.46
13,5016.49
14,4424.52
15,4119.96
16,3883.86
17,3949.7
18,3789.25
19,3437.43
20,3421.83
21,3125.16
22,3109.54
23,2954.76
24,2811.65
25,2714.81
26,2604.84
27,2589.31
28,2386.07
29,2372.4
30,2263.54
31,2249.84
32,2083.77
33,2129.09
34,2105.24
35,2062.1
36,1840.39
37,1949.05
38,1823.45
39,1773.6
40,1683.19
41,1683.19
42,1654.73
43,1620.69
44,1452.81
45,1480.09
46,1396.43
47,1396.43
48,1343.67
49,1357.41
50,1308.51
51,1269.93
52,1234.44
53,1182.4
54,1168.17
55,1131.77
56,1100.22
57,1082.08
58,1050.26
59,1017.78
60,984.4
61,969.3
62,952.99
63,943.58
64,912.69
65,903.33
66,888.51
67,863.12
68,848.72
69,813.19
70,798.88
71,778.2
72,773.11
73,755.32
74,738.79
75,735.13
76,725.31
77,703.18
78,694.08
79,684.78
80,665.57
81,645.69
82,637.91
83,625.27
84,617.72
85,604.53
86,595.9
87,580.68
88,573.94
89,558.27
90,555.7
91,550.48
92,535.76
93,527.45
94,522.69
95,514.07
96,502.18
97,497.5
98,487.11
99,485.26
100,473.96
