Freq,Impedance
1,10.56
2,609.5
3,1170.64
4,2535.9
5,4194.03
6,3668.98
7,3314.15
8,4151.88
9,4027.39
10,3854.0
11,3365.16
12,3547.91
13,3448.61
14,3024.5
15,2871.15
16,2626.46
17,2634.97
18,2483.19
19,2377.36
20,2276.74
21,2164.15
22,2163.01
23,2019.24
24,1979.21
25,1911.96
26,1866.66
27,1798.47
28,1674.58
29,1647.12
30,1599.24
31,1586.67
32,1528.44
33,1512.42
34,1494.89
35,1425.76
36,1346.06
37,1359.79
38,1330.42
39,1283.88
40,1246.5
41,1231.54
42,1219.85
43,1161.9
44,1138.7
45,1131.16
46,1081.14
47,1055.62
48,1025.06
49,1006.98
50,973.5
51,942.04
52,921.14
53,900.16
54,867.6
55,851.25
56,823.48
57,821.61
58,795.76
59,778.33
60,763.27
61,744.98
62,738.79
63,719.49
64,709.67
65,690.65
66,683.57
67,681.93
68,665.82
69,649.56
70,648.31
71,633.88
72,624.96
73,614.42
74,604.29
75,608.86
76,587.47
77,575.3
78,562.3
79,546.17
80,535.52
81,529.72
82,520.39
83,509.64
84,502.0
85,492.56
86,485.74
87,474.5
88,465.87
89,461.28
90,453.29
91,452.31
92,441.64
93,431.33
94,428.49
95,425.96
96,419.21
97,411.74
98,409.5
99,404.69
100,399.01
