Freq,Impedance
1,10.56
2,616.58
3,1187.36
4,2654.04
5,4092.07
6,3994.12
7,4760.79
8,4369.73
9,5377.51
10,4699.41
11,4057.19
12,4412.01
13,4536.08
14,3713.55
15,3570.43
16,3271.01
17,3309.47
18,3279.5
19,3171.42
20,2951.44
21,2860.16
22,2643.26
23,2572.41
24,2486.9
25,2401.32
26,2247.09
27,2249.84
28,1997.06
29,2025.78
30,2025.78
31,1952.64
32,1888.09
33,1817.91
34,1888.09
35,1764.14
36,1649.65
37,1683.66
38,1544.4
39,1577.74
40,1511.97
41,1521.64
42,1517.12
43,1488.52
44,1395.86
45,1351.0
46,1310.03
47,1287.1
48,1225.33
49,1192.9
50,1151.48
51,1126.16
52,1099.69
53,1119.88
54,1070.72
55,1018.87
56,959.92
57,961.66
58,931.99
59,912.07
60,925.6
61,882.1
62,852.48
63,832.37
64,815.28
65,806.82
66,792.01
67,778.64
68,776.63
69,1486.35
70,846.08
71,722.94
72,717.29
73,701.2
74,693.08
75,684.64
76,665.13
77,654.98
78,641.63
79,631.87
80,621.18
81,628.42
82,614.27
83,591.68
84,575.13
85,568.37
86,560.7
87,544.29
88,537.92
89,527.1
90,533.28
91,523.39
92,506.24
93,509.09
94,495.63
95,491.75
96,479.66
97,481.96
98,855.2
99,829.62
100,450.95
